File: scraping_pipeline/output/txt/rg/KZ EDX Pro (2 Low-Density Tuning Foams) L.txt
* Measurement data measured by REW V5.20.4
* Source: Input device not selected, no input selected, L, volume: no control
* Format: 256k Log Swept Sine, 1 sweep at -12,0 dBFS with no timing reference
* Dated: 2021-dec-13 17:41:31
* REW Settings:
*  C-weighting compensation: Off
*  Target level: 75.0 dB
* Note: Stock tips M + stock cable 3.5mm  Left  2 Low-density tuning foam
* Measurement: KZ EDX Pro 2low-DensityFoam
* Smoothing: 1/12 octave
* Frequency Step: 1/48 octave
* Start Frequency: 20.300 Hz
*
* Freq(Hz)	SPL(dB)	Phase(degrees)
20.3	150.422	6.6699
20.6	150.415	6.4642
20.9	150.396	6.0283
21.2	150.377	5.5458
21.4	150.366	5.2185
21.8	150.349	4.5592
22	150.342	4.2305
22.4	150.330	3.5781
22.7	150.321	3.1019
23	150.311	2.6468
23.3	150.299	2.2170
23.6	150.286	1.8104
24	150.268	1.2917
24.3	150.255	0.9050
24.7	150.237	0.3747
25	150.223	-0.0391
25.4	150.202	-0.6066
25.8	150.178	-1.1743
26.2	150.154	-1.7250
26.5	150.135	-2.1224
26.9	150.109	-2.6327
27.2	150.088	-3.0037
27.6	150.058	-3.4850
28	150.026	-3.9513
28.5	149.986	-4.5164
29	149.949	-5.0785
29.5	149.920	-5.6581
30	149.894	-6.2591
30.4	149.874	-6.7418
30.7	149.858	-7.0956
31.1	149.836	-7.5496
31.5	149.813	-7.9848
32	149.785	-8.5154
32.5	149.756	-9.0426
33	149.725	-9.5621
33.5	149.693	-10.0605
34	149.661	-10.5351
34.5	149.629	-11.0014
35	149.595	-11.4749
35.5	149.559	-11.9551
36	149.524	-12.4268
36.5	149.492	-12.8782
37	149.462	-13.3028
37.5	149.426	-13.6858
38.2	149.360	-14.1009
38.7	149.307	-14.3106
39.5	149.239	-14.6938
40	149.211	-15.1006
40.6	149.183	-15.7763
41.2	149.150	-16.5162
41.8	149.114	-17.1713
42.5	149.073	-17.7756
43.1	149.036	-18.2126
43.7	148.996	-18.6294
44.4	148.947	-19.1181
45	148.905	-19.5445
45.5	148.873	-19.9008
46.2	148.828	-20.3872
46.8	148.789	-20.7852
47.5	148.741	-21.2335
48.2	148.691	-21.6756
48.7	148.654	-21.9890
49.4	148.601	-22.4197
50	148.556	-22.7787
50.8	148.498	-23.2470
51.5	148.449	-23.6521
52.2	148.400	-24.0510
53	148.344	-24.4946
53.8	148.286	-24.9288
54.5	148.234	-25.3055
55.2	148.182	-25.6784
56	148.122	-26.0952
57	148.047	-26.5977
58	147.972	-27.0814
59	147.896	-27.5524
60	147.820	-28.0136
60.8	147.760	-28.3742
61.5	147.708	-28.6835
62.2	147.656	-28.9880
63	147.597	-29.3309
64	147.523	-29.7516
65	147.449	-30.1618
66	147.377	-30.5596
67	147.305	-30.9449
68	147.233	-31.3192
69	147.161	-31.6826
70	147.090	-32.0368
71	147.018	-32.3841
72	146.947	-32.7247
73	146.876	-33.0574
74	146.807	-33.3811
75	146.738	-33.6940
76.2	146.657	-34.0537
77.5	146.571	-34.4269
78.8	146.487	-34.7880
80	146.409	-35.1126
81.2	146.332	-35.4287
82.5	146.248	-35.7597
83.8	146.165	-36.0798
85	146.088	-36.3677
86.2	146.010	-36.6482
87.5	145.927	-36.9434
88.5	145.863	-37.1642
90	145.767	-37.4815
91.2	145.687	-37.7200
92.5	145.599	-37.9664
93.8	145.513	-38.2056
95	145.435	-38.4212
96.2	145.358	-38.6327
97.5	145.275	-38.8588
98.8	145.192	-39.0791
100	145.116	-39.2724
101.5	145.023	-39.4995
103	144.932	-39.7158
104.4	144.849	-39.9092
106	144.755	-40.1192
107.5	144.669	-40.3060
109	144.584	-40.4847
110.6	144.495	-40.6703
112	144.419	-40.8293
113.8	144.322	-41.0254
115	144.257	-41.1495
117.2	144.140	-41.3607
118	144.097	-41.4321
120.6	143.956	-41.6516
122	143.880	-41.7643
124.1	143.765	-41.9214
125	143.715	-41.9826
126.5	143.634	-42.0765
128	143.552	-42.1632
131.5	143.360	-42.3441
132	143.332	-42.3670
134	143.222	-42.4495
136	143.112	-42.5165
138	143.004	-42.5664
140	142.896	-42.6031
143	142.738	-42.6376
145	142.634	-42.6363
147.5	142.507	-42.6041
150	142.384	-42.5461
152.5	142.269	-42.4687
155	142.163	-42.3792
157.5	142.066	-42.2767
160	141.973	-42.1389
162.5	141.884	-41.9663
165	141.801	-41.7985
167.5	141.723	-41.6542
170	141.649	-41.5309
172.5	141.578	-41.4264
175	141.510	-41.3384
177.5	141.445	-41.2645
180	141.382	-41.2075
182.5	141.319	-41.1690
185	141.256	-41.1479
187.5	141.193	-41.1415
190	141.127	-41.1441
192.5	141.057	-41.1481
195	140.984	-41.1505
197.5	140.908	-41.1558
200	140.830	-41.1659
203	140.736	-41.1740
206	140.642	-41.1616
209	140.548	-41.1188
212	140.453	-41.0505
214	140.390	-40.9977
218	140.264	-40.8860
220	140.201	-40.8263
224	140.077	-40.6933
227	139.985	-40.5778
230	139.894	-40.4458
233	139.805	-40.2972
236	139.717	-40.1346
240	139.602	-39.9011
243	139.516	-39.7151
247	139.405	-39.4520
250	139.324	-39.2421
254	139.221	-38.9425
258	139.122	-38.6213
262	139.029	-38.2885
265	138.963	-38.0370
269	138.883	-37.7064
272	138.827	-37.4692
276	138.756	-37.1810
280	138.688	-36.9376
285	138.604	-36.6857
290	138.516	-36.4588
295	138.424	-36.2361
300	138.330	-36.0114
304	138.254	-35.8197
307	138.197	-35.6638
311	138.121	-35.4415
315	138.046	-35.2064
320	137.951	-34.8993
325	137.858	-34.5847
330	137.769	-34.2635
335	137.680	-33.9289
340	137.594	-33.5760
345	137.510	-33.2029
350	137.428	-32.8149
355	137.348	-32.4201
360	137.272	-32.0176
365	137.201	-31.6070
370	137.134	-31.1971
375	137.071	-30.7968
382	136.987	-30.2552
387	136.930	-29.8806
395	136.842	-29.3027
400	136.788	-28.9518
406	136.724	-28.5333
412	136.660	-28.1111
418	136.597	-27.6849
425	136.526	-27.1900
431	136.468	-26.7673
437	136.412	-26.3397
444	136.349	-25.8304
450	136.298	-25.3865
455	136.257	-25.0153
462	136.200	-24.4958
468	136.152	-24.0503
475	136.098	-23.5301
482	136.045	-23.0101
487	136.009	-22.6382
494	135.959	-22.1157
500	135.916	-21.6673
508	135.862	-21.0685
515	135.815	-20.5435
522	135.770	-20.0214
530	135.721	-19.4303
538	135.675	-18.8413
545	135.636	-18.3243
552	135.600	-17.8047
560	135.561	-17.2100
570	135.514	-16.4681
580	135.470	-15.7281
590	135.431	-14.9848
600	135.397	-14.2453
608	135.375	-13.6615
615	135.359	-13.1542
622	135.346	-12.6490
630	135.335	-12.0743
640	135.325	-11.3610
650	135.317	-10.6552
660	135.311	-9.9602
670	135.307	-9.2784
680	135.305	-8.6162
690	135.305	-7.9853
700	135.306	-7.4011
710	135.304	-6.8813
720	135.296	-6.4412
730	135.270	-6.0774
740	135.213	-5.7352
750	135.116	-5.2755
762	134.960	-4.2879
775	134.807	-2.4723
788	134.759	-0.1582
800	134.822	1.8805
812	134.940	3.5135
825	135.071	4.8646
838	135.185	5.9749
850	135.274	6.9140
862	135.354	7.8273
875	135.437	8.8093
885	135.501	9.5639
900	135.598	10.6955
912	135.678	11.5995
925	135.768	12.5772
938	135.860	13.5477
950	135.947	14.4301
962	136.032	15.2953
975	136.124	16.2096
988	136.217	17.0986
1000	136.304	17.8956
1015	136.418	18.8529
1030	136.538	19.7606
1044	136.652	20.5620
1060	136.786	21.4224
1075	136.913	22.1746
1090	137.039	22.8722
1106	137.172	23.5536
1120	137.287	24.0977
1138	137.434	24.7295
1150	137.532	25.1098
1172	137.710	25.7297
1180	137.774	25.9328
1206	137.984	26.5178
1220	138.098	26.7897
1241	138.271	27.1515
1250	138.345	27.2924
1265	138.467	27.5116
1280	138.588	27.7143
1315	138.865	28.1426
1320	138.904	28.1999
1340	139.063	28.4212
1360	139.228	28.6294
1380	139.401	28.8261
1400	139.580	29.0138
1430	139.857	29.2706
1450	140.044	29.4204
1475	140.282	29.5797
1500	140.524	29.6957
1525	140.770	29.7541
1550	141.019	29.7431
1575	141.270	29.6512
1600	141.522	29.4675
1625	141.774	29.1857
1650	142.023	28.8042
1675	142.268	28.3236
1700	142.506	27.7477
1725	142.735	27.0834
1750	142.954	26.3377
1775	143.163	25.5183
1800	143.362	24.6313
1825	143.553	23.6806
1850	143.733	22.6703
1875	143.904	21.6049
1900	144.066	20.4875
1925	144.220	19.3209
1950	144.366	18.1077
1975	144.501	16.8510
2000	144.625	15.5570
2030	144.756	13.9657
2060	144.867	12.3432
2090	144.957	10.7013
2120	145.024	9.0538
2140	145.057	7.9598
2180	145.092	5.8017
2200	145.096	4.7464
2240	145.075	2.7061
2270	145.037	1.2532
2300	144.981	-0.1214
2330	144.910	-1.4084
2360	144.824	-2.5989
2400	144.689	-4.0260
2430	144.573	-4.9725
2470	144.401	-6.0681
2500	144.263	-6.7664
2540	144.072	-7.5380
2580	143.877	-8.1354
2620	143.683	-8.5687
2650	143.539	-8.7931
2690	143.350	-8.9677
2720	143.212	-9.0107
2760	143.033	-8.9600
2800	142.861	-8.7982
2850	142.658	-8.4566
2900	142.471	-7.9765
2950	142.300	-7.3793
3000	142.145	-6.6860
3040	142.033	-6.0718
3070	141.956	-5.5805
3110	141.863	-4.8898
3150	141.781	-4.1655
3200	141.691	-3.2249
3250	141.613	-2.2564
3300	141.543	-1.2633
3350	141.474	-0.2192
3400	141.406	0.9597
3450	141.353	2.3720
3500	141.347	3.9615
3550	141.396	5.5001
3600	141.478	6.8499
3650	141.573	8.0368
3700	141.674	9.1243
3750	141.783	10.1496
3820	141.952	11.5064
3870	142.090	12.4230
3950	142.340	13.7859
4000	142.514	14.5599
4060	142.743	15.3925
4120	142.990	16.1017
4180	143.257	16.6706
4250	143.591	17.1362
4310	143.899	17.3455
4370	144.229	17.3465
4440	144.637	17.0212
4500	144.998	16.4073
4550	145.300	15.6289
4620	145.712	14.0986
4680	146.043	12.3620
4750	146.387	9.8442
4820	146.666	6.8363
4870	146.816	4.4317
4940	146.946	0.7972
5000	146.978	-2.4667
5080	146.901	-6.8426
5150	146.725	-10.5136
5220	146.457	-13.8809
5300	146.056	-17.2133
5380	145.574	-19.8982
5450	145.102	-21.6728
5520	144.594	-22.8762
5600	143.990	-23.4826
5700	143.267	-23.0470
5800	142.690	-21.8952
5900	142.234	-20.9912
6000	141.769	-20.1181
6080	141.385	-19.0706
6150	141.062	-17.8525
6220	140.765	-16.3976
6300	140.469	-14.5156
6400	140.169	-11.9412
6500	139.952	-9.2268
6600	139.813	-6.4538
6700	139.747	-3.6743
6800	139.749	-0.9259
6900	139.814	1.7518
7000	139.950	4.3048
7100	140.167	6.6577
7200	140.479	8.7092
7300	140.890	10.3273
7400	141.399	11.3491
7500	141.996	11.5773
7620	142.800	10.4616
7750	143.692	7.0267
7880	144.459	0.8256
8000	144.898	-7.2828
8120	144.957	-16.8569
8250	144.534	-27.2208
8380	143.651	-35.8014
8500	142.540	-41.2379
8620	141.280	-44.1933
8750	139.889	-45.0027
8850	138.870	-44.3055
9000	137.492	-41.7111
9120	136.539	-38.6946
9250	135.655	-34.7917
9380	134.913	-30.4286
9500	134.339	-26.1024
9620	133.857	-21.5490
9750	133.428	-16.3977
9880	133.091	-11.0435
10000	132.867	-5.9448
10150	132.717	0.5710
10300	132.725	7.0948
10440	132.874	13.0175
10600	133.197	19.4707
10750	133.649	25.2107
10900	134.275	30.6197
11060	135.178	35.8291
11200	136.190	39.5876
11380	137.762	42.5435
11500	138.906	42.6991
11720	140.870	37.3651
11800	141.436	33.2985
12060	142.271	13.8477
12200	141.971	2.4424
12410	140.645	-10.4298
12500	139.847	-13.7138
12650	138.363	-16.3442
12800	136.837	-16.1433
13150	133.799	-9.3224
13200	133.459	-7.9515
13400	132.362	-2.0333
13600	131.671	4.1865
13800	131.372	10.3190
14000	131.440	16.0259
14300	132.140	22.8373
14500	132.881	25.2476
14750	133.801	24.6984
15000	134.308	21.4385
15250	134.481	21.1213
15500	135.258	24.4831
15750	136.462	22.4305
16000	137.092	12.8808
16250	136.956	1.4883
16500	136.267	-7.7713
16750	135.245	-13.7088
17000	134.112	-16.4731
17250	133.122	-17.2833
17500	132.415	-18.0587
17750	131.840	-20.0426
18000	131.113	-22.6387
18250	130.094	-24.1872
18500	128.848	-23.6767
18750	127.518	-21.2711
19000	126.204	-17.5668
19250	124.950	-12.9857
19500	123.809	-7.9585
19750	122.891	-3.3551