File: scraping_pipeline/output/txt/rg/KZ EDX Pro (Low-Density Tuning Foam) L.txt
* Measurement data measured by REW V5.20.4
* Source: Input device not selected, no input selected, L, volume: no control
* Format: 256k Log Swept Sine, 1 sweep at -12,0 dBFS with no timing reference
* Dated: 2021-dec-13 17:39:37
* REW Settings:
*  C-weighting compensation: Off
*  Target level: 75.0 dB
* Note: Stock tips M + stock cable 3.5mm  Left  Low-density tuning foam
* Measurement: KZ EDX Pro low-DensityFoaml
* Smoothing: 1/12 octave
* Frequency Step: 1/48 octave
* Start Frequency: 20.300 Hz
*
* Freq(Hz)	SPL(dB)	Phase(degrees)
20.3	150.481	6.3921
20.6	150.474	6.1873
20.9	150.457	5.7526
21.2	150.439	5.2705
21.4	150.428	4.9438
21.8	150.409	4.2899
22	150.401	3.9672
22.4	150.385	3.3327
22.7	150.374	2.8696
23	150.362	2.4189
23.3	150.349	1.9789
23.6	150.336	1.5471
24	150.316	0.9810
24.3	150.301	0.5621
24.7	150.279	0.0108
25	150.262	-0.3976
25.4	150.241	-0.9365
25.8	150.221	-1.4707
26.2	150.201	-1.9991
26.5	150.186	-2.3887
26.9	150.164	-2.8948
27.2	150.148	-3.2631
27.6	150.125	-3.7417
28	150.102	-4.2136
28.5	150.073	-4.8056
29	150.040	-5.4001
29.5	150.004	-5.9837
30	149.966	-6.5437
30.4	149.937	-6.9758
30.7	149.916	-7.2948
31.1	149.890	-7.7192
31.5	149.865	-8.1450
32	149.833	-8.6773
32.5	149.801	-9.2031
33	149.769	-9.7165
33.5	149.737	-10.2150
34	149.704	-10.6995
34.5	149.671	-11.1732
35	149.637	-11.6406
35.5	149.603	-12.1032
36	149.569	-12.5581
36.5	149.536	-13.0013
37	149.503	-13.4292
37.5	149.468	-13.8376
38.2	149.413	-14.3645
38.7	149.372	-14.7114
39.5	149.312	-15.2804
40	149.280	-15.6885
40.6	149.241	-16.2353
41.2	149.201	-16.7952
41.8	149.159	-17.3182
42.5	149.111	-17.8669
43.1	149.072	-18.3061
43.7	149.032	-18.7337
44.4	148.984	-19.2241
45	148.944	-19.6386
45.5	148.912	-19.9794
46.2	148.865	-20.4466
46.8	148.825	-20.8377
47.5	148.776	-21.2875
48.2	148.727	-21.7335
48.7	148.691	-22.0489
49.4	148.642	-22.4845
50	148.600	-22.8514
50.8	148.543	-23.3281
51.5	148.492	-23.7303
52.2	148.440	-24.1195
53	148.381	-24.5541
53.8	148.321	-24.9823
54.5	148.268	-25.3522
55.2	148.214	-25.7171
56	148.152	-26.1267
57	148.075	-26.6258
58	147.999	-27.1087
59	147.923	-27.5751
60	147.848	-28.0310
60.8	147.788	-28.3919
61.5	147.736	-28.7041
62.2	147.684	-29.0105
63	147.625	-29.3508
64	147.551	-29.7602
65	147.477	-30.1555
66	147.402	-30.5424
67	147.328	-30.9221
68	147.255	-31.2927
69	147.183	-31.6541
70	147.111	-32.0081
71	147.039	-32.3538
72	146.967	-32.6888
73	146.896	-33.0110
74	146.825	-33.3222
75	146.755	-33.6264
76.2	146.673	-33.9835
77.5	146.587	-34.3571
78.8	146.502	-34.7186
80	146.424	-35.0469
81.2	146.347	-35.3689
82.5	146.263	-35.7064
83.8	146.179	-36.0272
85	146.100	-36.3063
86.2	146.021	-36.5699
87.5	145.937	-36.8369
88.5	145.873	-37.0309
90	145.776	-37.3251
91.2	145.695	-37.5754
92.5	145.606	-37.8468
93.8	145.519	-38.1029
95	145.440	-38.3243
96.2	145.362	-38.5335
97.5	145.277	-38.7480
98.8	145.193	-38.9547
100	145.114	-39.1432
101.5	145.017	-39.3700
103	144.922	-39.5756
104.4	144.836	-39.7492
106	144.741	-39.9367
107.5	144.655	-40.1085
109	144.571	-40.2761
110.6	144.484	-40.4461
112	144.408	-40.5851
113.8	144.311	-40.7504
115	144.246	-40.8562
117.2	144.126	-41.0500
118	144.083	-41.1196
120.6	143.944	-41.3254
122	143.871	-41.4215
124.1	143.763	-41.5594
125	143.715	-41.6172
126.5	143.635	-41.7089
128	143.555	-41.7928
131.5	143.369	-41.9655
132	143.342	-41.9887
134	143.236	-42.0815
136	143.129	-42.1728
138	143.021	-42.2528
140	142.913	-42.3091
143	142.750	-42.3474
145	142.641	-42.3572
147.5	142.507	-42.3517
150	142.376	-42.3127
152.5	142.248	-42.2235
155	142.126	-42.0773
157.5	142.010	-41.8751
160	141.906	-41.5964
162.5	141.817	-41.2332
165	141.747	-40.8363
167.5	141.695	-40.4881
170	141.659	-40.2638
172.5	141.632	-40.1943
175	141.603	-40.2510
177.5	141.562	-40.3815
180	141.508	-40.5517
182.5	141.443	-40.7306
185	141.368	-40.8893
187.5	141.286	-41.0164
190	141.200	-41.1108
192.5	141.111	-41.1648
195	141.021	-41.1732
197.5	140.931	-41.1466
200	140.841	-41.1040
203	140.734	-41.0460
206	140.629	-40.9711
209	140.524	-40.8707
212	140.421	-40.7468
214	140.353	-40.6512
218	140.218	-40.4238
220	140.152	-40.2916
224	140.026	-39.9906
227	139.938	-39.7363
230	139.858	-39.4687
233	139.786	-39.2059
236	139.722	-38.9710
240	139.644	-38.7314
243	139.586	-38.6077
247	139.504	-38.4887
250	139.437	-38.4114
254	139.343	-38.3012
258	139.247	-38.1651
262	139.149	-38.0000
265	139.075	-37.8636
269	138.978	-37.6690
272	138.906	-37.5121
276	138.812	-37.2889
280	138.720	-37.0565
285	138.608	-36.7580
290	138.499	-36.4453
295	138.392	-36.1224
300	138.288	-35.7946
304	138.207	-35.5287
307	138.148	-35.3241
311	138.070	-35.0413
315	137.995	-34.7469
320	137.902	-34.3680
325	137.812	-33.9855
330	137.725	-33.6010
335	137.640	-33.2141
340	137.558	-32.8229
345	137.480	-32.4250
350	137.406	-32.0252
355	137.334	-31.6341
360	137.264	-31.2539
365	137.194	-30.8793
370	137.126	-30.5081
375	137.059	-30.1391
382	136.968	-29.6203
387	136.905	-29.2448
395	136.809	-28.6360
400	136.751	-28.2537
406	136.683	-27.7946
412	136.616	-27.3369
418	136.551	-26.8790
425	136.478	-26.3361
431	136.420	-25.8647
437	136.364	-25.3951
444	136.302	-24.8528
450	136.252	-24.3895
455	136.211	-24.0018
462	136.156	-23.4581
468	136.110	-22.9952
475	136.057	-22.4584
482	136.006	-21.9184
487	135.969	-21.5296
494	135.918	-20.9849
500	135.875	-20.5201
508	135.820	-19.9017
515	135.774	-19.3602
522	135.730	-18.8195
530	135.682	-18.2019
538	135.636	-17.5836
545	135.598	-17.0422
552	135.561	-16.5015
560	135.522	-15.8838
570	135.475	-15.1088
580	135.432	-14.3339
590	135.392	-13.5628
600	135.356	-12.7983
608	135.333	-12.1903
615	135.317	-11.6592
622	135.305	-11.1288
630	135.294	-10.5255
640	135.284	-9.7811
650	135.277	-9.0499
660	135.271	-8.3334
670	135.267	-7.6369
680	135.265	-6.9635
690	135.265	-6.3190
700	135.265	-5.7174
710	135.263	-5.1778
720	135.252	-4.7176
730	135.221	-4.3303
740	135.158	-3.9484
750	135.054	-3.4130
762	134.892	-2.2740
775	134.749	-0.2738
788	134.724	2.1328
800	134.806	4.1499
812	134.928	5.7301
825	135.057	7.0485
838	135.167	8.1569
850	135.255	9.1123
862	135.335	10.0516
875	135.418	11.0695
885	135.481	11.8555
900	135.577	13.0383
912	135.657	13.9850
925	135.747	15.0055
938	135.840	16.0137
950	135.927	16.9277
962	136.013	17.8243
975	136.106	18.7761
988	136.199	19.7048
1000	136.286	20.5373
1015	136.400	21.5387
1030	136.520	22.4913
1044	136.635	23.3345
1060	136.769	24.2453
1075	136.896	25.0482
1090	137.021	25.7972
1106	137.152	26.5338
1120	137.265	27.1266
1138	137.410	27.8237
1150	137.507	28.2500
1172	137.684	28.9543
1180	137.748	29.1885
1206	137.959	29.8862
1220	138.073	30.2266
1241	138.245	30.6973
1250	138.318	30.8869
1265	138.440	31.1898
1280	138.560	31.4791
1315	138.838	32.1136
1320	138.878	32.2005
1340	139.040	32.5419
1360	139.208	32.8764
1380	139.384	33.2070
1400	139.567	33.5331
1430	139.852	34.0046
1450	140.046	34.3025
1475	140.295	34.6513
1500	140.550	34.9649
1525	140.810	35.2295
1550	141.075	35.4314
1575	141.345	35.5572
1600	141.619	35.5934
1625	141.895	35.5303
1650	142.173	35.3664
1675	142.449	35.1045
1700	142.722	34.7437
1725	142.990	34.2836
1750	143.252	33.7288
1775	143.507	33.0854
1800	143.757	32.3579
1825	143.999	31.5477
1850	144.236	30.6561
1875	144.465	29.6835
1900	144.689	28.6289
1925	144.907	27.4916
1950	145.118	26.2732
1975	145.320	24.9768
2000	145.511	23.6052
2030	145.722	21.8640
2060	145.911	20.0255
2090	146.075	18.1027
2120	146.212	16.1134
2140	146.287	14.7608
2180	146.398	12.0239
2200	146.433	10.6547
2240	146.463	7.9528
2270	146.452	5.9873
2300	146.415	4.0988
2330	146.354	2.3068
2360	146.269	0.6273
2400	146.125	-1.4167
2430	145.994	-2.7935
2470	145.795	-4.4135
2500	145.631	-5.4652
2540	145.402	-6.6554
2580	145.166	-7.6146
2620	144.928	-8.3550
2650	144.749	-8.7754
2690	144.516	-9.1702
2720	144.344	-9.3518
2760	144.121	-9.4541
2800	143.907	-9.4098
2850	143.654	-9.1733
2900	143.419	-8.7675
2950	143.202	-8.2171
3000	143.005	-7.5397
3040	142.861	-6.9195
3070	142.762	-6.4151
3110	142.640	-5.6966
3150	142.530	-4.9329
3200	142.407	-3.9269
3250	142.299	-2.8748
3300	142.202	-1.7774
3350	142.113	-0.6100
3400	142.032	0.6910
3450	141.972	2.1867
3500	141.958	3.8044
3550	141.991	5.3513
3600	142.051	6.7314
3650	142.122	7.9825
3700	142.200	9.1659
3750	142.287	10.3153
3820	142.431	11.8830
3870	142.554	12.9696
3950	142.785	14.6304
4000	142.953	15.6033
4060	143.176	16.6856
4120	143.423	17.6550
4180	143.693	18.4902
4250	144.038	19.2729
4310	144.360	19.7656
4370	144.709	20.0686
4440	145.149	20.1177
4500	145.548	19.8310
4550	145.891	19.3175
4620	146.374	18.1242
4680	146.778	16.6193
4750	147.217	14.2684
4820	147.599	11.2822
4870	147.822	8.7920
4940	148.048	4.8941
5000	148.153	1.2832
5080	148.155	-3.6882
5150	148.028	-7.9550
5220	147.789	-11.9363
5300	147.398	-15.9386
5380	146.906	-19.2135
5450	146.413	-21.4200
5520	145.877	-22.9732
5600	145.235	-23.8828
5700	144.459	-23.6915
5800	143.835	-22.6534
5900	143.339	-21.7536
6000	142.850	-20.7932
6080	142.461	-19.6391
6150	142.145	-18.3294
6220	141.865	-16.8064
6300	141.598	-14.8940
6400	141.345	-12.3608
6500	141.179	-9.7635
6600	141.098	-7.1739
6700	141.094	-4.6483
6800	141.161	-2.2306
6900	141.297	0.0388
7000	141.509	2.1041
7100	141.814	3.8705
7200	142.228	5.1847
7300	142.754	5.8221
7400	143.379	5.4825
7500	144.064	3.8028
7620	144.868	-0.4923
7750	145.538	-8.3054
7880	145.789	-18.8360
8000	145.531	-29.3784
8120	144.802	-38.8008
8250	143.590	-46.2298
8380	142.120	-50.3456
8500	140.692	-51.5757
8620	139.314	-50.9258
8750	137.960	-48.7118
8850	137.040	-46.2556
9000	135.858	-41.7271
9120	135.067	-37.5866
9250	134.345	-32.7348
9380	133.747	-27.6040
9500	133.293	-22.6786
9620	132.922	-17.6008
9750	132.603	-11.9471
9880	132.371	-6.1485
10000	132.240	-0.6841
10150	132.205	6.2417
10300	132.327	13.1472
10440	132.587	19.4247
10600	133.051	26.2870
10750	133.664	32.3935
10900	134.489	38.1160
11060	135.661	43.5328
11200	136.952	47.2571
11380	138.893	49.5751
11500	140.238	48.6820
11720	142.346	39.6774
11800	142.870	33.8324
12060	143.241	9.6026
12200	142.562	-2.2463
12410	140.689	-13.0673
12500	139.703	-15.0198
12650	137.995	-15.4618
12800	136.363	-13.4166
13150	133.441	-3.7783
13200	133.143	-2.1315
13400	132.239	4.6877
13600	131.768	11.5643
13800	131.710	18.1750
14000	132.050	24.2093
14300	133.223	31.1537
14500	134.302	33.2241
14750	135.613	31.3895
15000	136.428	25.5926
15250	136.816	21.4390
15500	137.559	19.5325
15750	138.336	11.8813
16000	138.307	-0.7229
16250	137.522	-11.9007
16500	136.373	-19.6942
16750	135.073	-24.7088
17000	133.691	-27.2706
17250	132.323	-27.6917
17500	131.107	-26.9315
17750	130.057	-25.9917
18000	129.032	-24.8155
18250	127.923	-22.5579
18500	126.762	-18.7875
18750	125.640	-13.8623
19000	124.603	-8.2939
19250	123.657	-2.3336
19500	122.829	3.7057
19750	122.191	8.9946