File: scraping_pipeline/output/csv/rg/KZ EDX Pro (Low-Density Tuning Foam) L.csv
X,Y
20.3,150.481
20.6,150.474
20.9,150.457
21.2,150.439
21.4,150.428
21.8,150.409
22,150.401
22.4,150.385
22.7,150.374
23,150.362
23.3,150.349
23.6,150.336
24,150.316
24.3,150.301
24.7,150.279
25,150.262
25.4,150.241
25.8,150.221
26.2,150.201
26.5,150.186
26.9,150.164
27.2,150.148
27.6,150.125
28,150.102
28.5,150.073
29,150.040
29.5,150.004
30,149.966
30.4,149.937
30.7,149.916
31.1,149.890
31.5,149.865
32,149.833
32.5,149.801
33,149.769
33.5,149.737
34,149.704
34.5,149.671
35,149.637
35.5,149.603
36,149.569
36.5,149.536
37,149.503
37.5,149.468
38.2,149.413
38.7,149.372
39.5,149.312
40,149.280
40.6,149.241
41.2,149.201
41.8,149.159
42.5,149.111
43.1,149.072
43.7,149.032
44.4,148.984
45,148.944
45.5,148.912
46.2,148.865
46.8,148.825
47.5,148.776
48.2,148.727
48.7,148.691
49.4,148.642
50,148.600
50.8,148.543
51.5,148.492
52.2,148.440
53,148.381
53.8,148.321
54.5,148.268
55.2,148.214
56,148.152
57,148.075
58,147.999
59,147.923
60,147.848
60.8,147.788
61.5,147.736
62.2,147.684
63,147.625
64,147.551
65,147.477
66,147.402
67,147.328
68,147.255
69,147.183
70,147.111
71,147.039
72,146.967
73,146.896
74,146.825
75,146.755
76.2,146.673
77.5,146.587
78.8,146.502
80,146.424
81.2,146.347
82.5,146.263
83.8,146.179
85,146.100
86.2,146.021
87.5,145.937
88.5,145.873
90,145.776
91.2,145.695
92.5,145.606
93.8,145.519
95,145.440
96.2,145.362
97.5,145.277
98.8,145.193
100,145.114
101.5,145.017
103,144.922
104.4,144.836
106,144.741
107.5,144.655
109,144.571
110.6,144.484
112,144.408
113.8,144.311
115,144.246
117.2,144.126
118,144.083
120.6,143.944
122,143.871
124.1,143.763
125,143.715
126.5,143.635
128,143.555
131.5,143.369
132,143.342
134,143.236
136,143.129
138,143.021
140,142.913
143,142.750
145,142.641
147.5,142.507
150,142.376
152.5,142.248
155,142.126
157.5,142.010
160,141.906
162.5,141.817
165,141.747
167.5,141.695
170,141.659
172.5,141.632
175,141.603
177.5,141.562
180,141.508
182.5,141.443
185,141.368
187.5,141.286
190,141.200
192.5,141.111
195,141.021
197.5,140.931
200,140.841
203,140.734
206,140.629
209,140.524
212,140.421
214,140.353
218,140.218
220,140.152
224,140.026
227,139.938
230,139.858
233,139.786
236,139.722
240,139.644
243,139.586
247,139.504
250,139.437
254,139.343
258,139.247
262,139.149
265,139.075
269,138.978
272,138.906
276,138.812
280,138.720
285,138.608
290,138.499
295,138.392
300,138.288
304,138.207
307,138.148
311,138.070
315,137.995
320,137.902
325,137.812
330,137.725
335,137.640
340,137.558
345,137.480
350,137.406
355,137.334
360,137.264
365,137.194
370,137.126
375,137.059
382,136.968
387,136.905
395,136.809
400,136.751
406,136.683
412,136.616
418,136.551
425,136.478
431,136.420
437,136.364
444,136.302
450,136.252
455,136.211
462,136.156
468,136.110
475,136.057
482,136.006
487,135.969
494,135.918
500,135.875
508,135.820
515,135.774
522,135.730
530,135.682
538,135.636
545,135.598
552,135.561
560,135.522
570,135.475
580,135.432
590,135.392
600,135.356
608,135.333
615,135.317
622,135.305
630,135.294
640,135.284
650,135.277
660,135.271
670,135.267
680,135.265
690,135.265
700,135.265
710,135.263
720,135.252
730,135.221
740,135.158
750,135.054
762,134.892
775,134.749
788,134.724
800,134.806
812,134.928
825,135.057
838,135.167
850,135.255
862,135.335
875,135.418
885,135.481
900,135.577
912,135.657
925,135.747
938,135.840
950,135.927
962,136.013
975,136.106
988,136.199
1000,136.286
1015,136.400
1030,136.520
1044,136.635
1060,136.769
1075,136.896
1090,137.021
1106,137.152
1120,137.265
1138,137.410
1150,137.507
1172,137.684
1180,137.748
1206,137.959
1220,138.073
1241,138.245
1250,138.318
1265,138.440
1280,138.560
1315,138.838
1320,138.878
1340,139.040
1360,139.208
1380,139.384
1400,139.567
1430,139.852
1450,140.046
1475,140.295
1500,140.550
1525,140.810
1550,141.075
1575,141.345
1600,141.619
1625,141.895
1650,142.173
1675,142.449
1700,142.722
1725,142.990
1750,143.252
1775,143.507
1800,143.757
1825,143.999
1850,144.236
1875,144.465
1900,144.689
1925,144.907
1950,145.118
1975,145.320
2000,145.511
2030,145.722
2060,145.911
2090,146.075
2120,146.212
2140,146.287
2180,146.398
2200,146.433
2240,146.463
2270,146.452
2300,146.415
2330,146.354
2360,146.269
2400,146.125
2430,145.994
2470,145.795
2500,145.631
2540,145.402
2580,145.166
2620,144.928
2650,144.749
2690,144.516
2720,144.344
2760,144.121
2800,143.907
2850,143.654
2900,143.419
2950,143.202
3000,143.005
3040,142.861
3070,142.762
3110,142.640
3150,142.530
3200,142.407
3250,142.299
3300,142.202
3350,142.113
3400,142.032
3450,141.972
3500,141.958
3550,141.991
3600,142.051
3650,142.122
3700,142.200
3750,142.287
3820,142.431
3870,142.554
3950,142.785
4000,142.953
4060,143.176
4120,143.423
4180,143.693
4250,144.038
4310,144.360
4370,144.709
4440,145.149
4500,145.548
4550,145.891
4620,146.374
4680,146.778
4750,147.217
4820,147.599
4870,147.822
4940,148.048
5000,148.153
5080,148.155
5150,148.028
5220,147.789
5300,147.398
5380,146.906
5450,146.413
5520,145.877
5600,145.235
5700,144.459
5800,143.835
5900,143.339
6000,142.850
6080,142.461
6150,142.145
6220,141.865
6300,141.598
6400,141.345
6500,141.179
6600,141.098
6700,141.094
6800,141.161
6900,141.297
7000,141.509
7100,141.814
7200,142.228
7300,142.754
7400,143.379
7500,144.064
7620,144.868
7750,145.538
7880,145.789
8000,145.531
8120,144.802
8250,143.590
8380,142.120
8500,140.692
8620,139.314
8750,137.960
8850,137.040
9000,135.858
9120,135.067
9250,134.345
9380,133.747
9500,133.293
9620,132.922
9750,132.603
9880,132.371
10000,132.240
10150,132.205
10300,132.327
10440,132.587
10600,133.051
10750,133.664
10900,134.489
11060,135.661
11200,136.952
11380,138.893
11500,140.238
11720,142.346
11800,142.870
12060,143.241
12200,142.562
12410,140.689
12500,139.703
12650,137.995
12800,136.363
13150,133.441
13200,133.143
13400,132.239
13600,131.768
13800,131.710
14000,132.050
14300,133.223
14500,134.302
14750,135.613
15000,136.428
15250,136.816
15500,137.559
15750,138.336
16000,138.307
16250,137.522
16500,136.373
16750,135.073
17000,133.691
17250,132.323
17500,131.107
17750,130.057
18000,129.032
18250,127.923
18500,126.762
18750,125.640
19000,124.603
19250,123.657
19500,122.829
19750,122.191