File: scraping_pipeline/output/csv/rg/KZ EDX Pro (2 Low-Density Tuning Foams) L.csv
X,Y
20.3,150.422
20.6,150.415
20.9,150.396
21.2,150.377
21.4,150.366
21.8,150.349
22,150.342
22.4,150.330
22.7,150.321
23,150.311
23.3,150.299
23.6,150.286
24,150.268
24.3,150.255
24.7,150.237
25,150.223
25.4,150.202
25.8,150.178
26.2,150.154
26.5,150.135
26.9,150.109
27.2,150.088
27.6,150.058
28,150.026
28.5,149.986
29,149.949
29.5,149.920
30,149.894
30.4,149.874
30.7,149.858
31.1,149.836
31.5,149.813
32,149.785
32.5,149.756
33,149.725
33.5,149.693
34,149.661
34.5,149.629
35,149.595
35.5,149.559
36,149.524
36.5,149.492
37,149.462
37.5,149.426
38.2,149.360
38.7,149.307
39.5,149.239
40,149.211
40.6,149.183
41.2,149.150
41.8,149.114
42.5,149.073
43.1,149.036
43.7,148.996
44.4,148.947
45,148.905
45.5,148.873
46.2,148.828
46.8,148.789
47.5,148.741
48.2,148.691
48.7,148.654
49.4,148.601
50,148.556
50.8,148.498
51.5,148.449
52.2,148.400
53,148.344
53.8,148.286
54.5,148.234
55.2,148.182
56,148.122
57,148.047
58,147.972
59,147.896
60,147.820
60.8,147.760
61.5,147.708
62.2,147.656
63,147.597
64,147.523
65,147.449
66,147.377
67,147.305
68,147.233
69,147.161
70,147.090
71,147.018
72,146.947
73,146.876
74,146.807
75,146.738
76.2,146.657
77.5,146.571
78.8,146.487
80,146.409
81.2,146.332
82.5,146.248
83.8,146.165
85,146.088
86.2,146.010
87.5,145.927
88.5,145.863
90,145.767
91.2,145.687
92.5,145.599
93.8,145.513
95,145.435
96.2,145.358
97.5,145.275
98.8,145.192
100,145.116
101.5,145.023
103,144.932
104.4,144.849
106,144.755
107.5,144.669
109,144.584
110.6,144.495
112,144.419
113.8,144.322
115,144.257
117.2,144.140
118,144.097
120.6,143.956
122,143.880
124.1,143.765
125,143.715
126.5,143.634
128,143.552
131.5,143.360
132,143.332
134,143.222
136,143.112
138,143.004
140,142.896
143,142.738
145,142.634
147.5,142.507
150,142.384
152.5,142.269
155,142.163
157.5,142.066
160,141.973
162.5,141.884
165,141.801
167.5,141.723
170,141.649
172.5,141.578
175,141.510
177.5,141.445
180,141.382
182.5,141.319
185,141.256
187.5,141.193
190,141.127
192.5,141.057
195,140.984
197.5,140.908
200,140.830
203,140.736
206,140.642
209,140.548
212,140.453
214,140.390
218,140.264
220,140.201
224,140.077
227,139.985
230,139.894
233,139.805
236,139.717
240,139.602
243,139.516
247,139.405
250,139.324
254,139.221
258,139.122
262,139.029
265,138.963
269,138.883
272,138.827
276,138.756
280,138.688
285,138.604
290,138.516
295,138.424
300,138.330
304,138.254
307,138.197
311,138.121
315,138.046
320,137.951
325,137.858
330,137.769
335,137.680
340,137.594
345,137.510
350,137.428
355,137.348
360,137.272
365,137.201
370,137.134
375,137.071
382,136.987
387,136.930
395,136.842
400,136.788
406,136.724
412,136.660
418,136.597
425,136.526
431,136.468
437,136.412
444,136.349
450,136.298
455,136.257
462,136.200
468,136.152
475,136.098
482,136.045
487,136.009
494,135.959
500,135.916
508,135.862
515,135.815
522,135.770
530,135.721
538,135.675
545,135.636
552,135.600
560,135.561
570,135.514
580,135.470
590,135.431
600,135.397
608,135.375
615,135.359
622,135.346
630,135.335
640,135.325
650,135.317
660,135.311
670,135.307
680,135.305
690,135.305
700,135.306
710,135.304
720,135.296
730,135.270
740,135.213
750,135.116
762,134.960
775,134.807
788,134.759
800,134.822
812,134.940
825,135.071
838,135.185
850,135.274
862,135.354
875,135.437
885,135.501
900,135.598
912,135.678
925,135.768
938,135.860
950,135.947
962,136.032
975,136.124
988,136.217
1000,136.304
1015,136.418
1030,136.538
1044,136.652
1060,136.786
1075,136.913
1090,137.039
1106,137.172
1120,137.287
1138,137.434
1150,137.532
1172,137.710
1180,137.774
1206,137.984
1220,138.098
1241,138.271
1250,138.345
1265,138.467
1280,138.588
1315,138.865
1320,138.904
1340,139.063
1360,139.228
1380,139.401
1400,139.580
1430,139.857
1450,140.044
1475,140.282
1500,140.524
1525,140.770
1550,141.019
1575,141.270
1600,141.522
1625,141.774
1650,142.023
1675,142.268
1700,142.506
1725,142.735
1750,142.954
1775,143.163
1800,143.362
1825,143.553
1850,143.733
1875,143.904
1900,144.066
1925,144.220
1950,144.366
1975,144.501
2000,144.625
2030,144.756
2060,144.867
2090,144.957
2120,145.024
2140,145.057
2180,145.092
2200,145.096
2240,145.075
2270,145.037
2300,144.981
2330,144.910
2360,144.824
2400,144.689
2430,144.573
2470,144.401
2500,144.263
2540,144.072
2580,143.877
2620,143.683
2650,143.539
2690,143.350
2720,143.212
2760,143.033
2800,142.861
2850,142.658
2900,142.471
2950,142.300
3000,142.145
3040,142.033
3070,141.956
3110,141.863
3150,141.781
3200,141.691
3250,141.613
3300,141.543
3350,141.474
3400,141.406
3450,141.353
3500,141.347
3550,141.396
3600,141.478
3650,141.573
3700,141.674
3750,141.783
3820,141.952
3870,142.090
3950,142.340
4000,142.514
4060,142.743
4120,142.990
4180,143.257
4250,143.591
4310,143.899
4370,144.229
4440,144.637
4500,144.998
4550,145.300
4620,145.712
4680,146.043
4750,146.387
4820,146.666
4870,146.816
4940,146.946
5000,146.978
5080,146.901
5150,146.725
5220,146.457
5300,146.056
5380,145.574
5450,145.102
5520,144.594
5600,143.990
5700,143.267
5800,142.690
5900,142.234
6000,141.769
6080,141.385
6150,141.062
6220,140.765
6300,140.469
6400,140.169
6500,139.952
6600,139.813
6700,139.747
6800,139.749
6900,139.814
7000,139.950
7100,140.167
7200,140.479
7300,140.890
7400,141.399
7500,141.996
7620,142.800
7750,143.692
7880,144.459
8000,144.898
8120,144.957
8250,144.534
8380,143.651
8500,142.540
8620,141.280
8750,139.889
8850,138.870
9000,137.492
9120,136.539
9250,135.655
9380,134.913
9500,134.339
9620,133.857
9750,133.428
9880,133.091
10000,132.867
10150,132.717
10300,132.725
10440,132.874
10600,133.197
10750,133.649
10900,134.275
11060,135.178
11200,136.190
11380,137.762
11500,138.906
11720,140.870
11800,141.436
12060,142.271
12200,141.971
12410,140.645
12500,139.847
12650,138.363
12800,136.837
13150,133.799
13200,133.459
13400,132.362
13600,131.671
13800,131.372
14000,131.440
14300,132.140
14500,132.881
14750,133.801
15000,134.308
15250,134.481
15500,135.258
15750,136.462
16000,137.092
16250,136.956
16500,136.267
16750,135.245
17000,134.112
17250,133.122
17500,132.415
17750,131.840
18000,131.113
18250,130.094
18500,128.848
18750,127.518
19000,126.204
19250,124.950
19500,123.809
19750,122.891