File: output/csv/rg/KZ EDX Pro (High-Density Tuning Foam) L.csv
X,Y
20.3,94.148
20.6,94.141
20.9,94.126
21.2,94.110
21.4,94.101
21.8,94.084
22,94.076
22.4,94.061
22.7,94.050
23,94.039
23.3,94.027
23.6,94.013
24,93.993
24.3,93.976
24.7,93.952
25,93.935
25.4,93.915
25.8,93.898
26.2,93.882
26.5,93.870
26.9,93.852
27.2,93.837
27.6,93.818
28,93.798
28.5,93.772
29,93.741
29.5,93.704
30,93.667
30.4,93.638
30.7,93.619
31.1,93.594
31.5,93.571
32,93.542
32.5,93.512
33,93.482
33.5,93.451
34,93.419
34.5,93.387
35,93.354
35.5,93.321
36,93.287
36.5,93.253
37,93.219
37.5,93.186
38.2,93.147
38.7,93.121
39.5,93.071
40,93.032
40.6,92.983
41.2,92.935
41.8,92.891
42.5,92.841
43.1,92.801
43.7,92.763
44.4,92.720
45,92.682
45.5,92.649
46.2,92.601
46.8,92.561
47.5,92.513
48.2,92.466
48.7,92.432
49.4,92.383
50,92.341
50.8,92.284
51.5,92.234
52.2,92.184
53,92.126
53.8,92.068
54.5,92.017
55.2,91.965
56,91.906
57,91.831
58,91.756
59,91.682
60,91.608
60.8,91.548
61.5,91.496
62.2,91.444
63,91.385
64,91.312
65,91.239
66,91.167
67,91.095
68,91.025
69,90.955
70,90.885
71,90.815
72,90.745
73,90.674
74,90.605
75,90.536
76.2,90.455
77.5,90.370
78.8,90.285
80,90.209
81.2,90.133
82.5,90.051
83.8,89.969
85,89.892
86.2,89.814
87.5,89.727
88.5,89.660
90,89.560
91.2,89.483
92.5,89.400
93.8,89.318
95,89.242
96.2,89.167
97.5,89.085
98.8,89.004
100,88.929
101.5,88.836
103,88.743
104.4,88.657
106,88.560
107.5,88.472
109,88.385
110.6,88.295
112,88.218
113.8,88.119
115,88.054
117.2,87.935
118,87.891
120.6,87.752
122,87.680
124.1,87.574
125,87.528
126.5,87.452
128,87.375
131.5,87.198
132,87.172
134,87.071
136,86.967
138,86.862
140,86.757
143,86.599
145,86.495
147.5,86.366
150,86.242
152.5,86.123
155,86.009
157.5,85.896
160,85.787
162.5,85.682
165,85.586
167.5,85.504
170,85.438
172.5,85.385
175,85.341
177.5,85.300
180,85.258
182.5,85.210
185,85.153
187.5,85.087
190,85.013
192.5,84.934
195,84.850
197.5,84.766
200,84.681
203,84.579
206,84.477
209,84.375
212,84.275
214,84.208
218,84.077
220,84.012
224,83.886
227,83.793
230,83.703
233,83.617
236,83.539
240,83.445
243,83.382
247,83.302
250,83.242
254,83.159
258,83.071
262,82.979
265,82.908
269,82.812
272,82.739
276,82.643
280,82.552
285,82.441
290,82.332
295,82.225
300,82.121
304,82.040
307,81.981
311,81.903
315,81.829
320,81.739
325,81.650
330,81.565
335,81.483
340,81.406
345,81.331
350,81.258
355,81.188
360,81.118
365,81.049
370,80.981
375,80.913
382,80.821
387,80.758
395,80.661
400,80.602
406,80.533
412,80.464
418,80.398
425,80.325
431,80.266
437,80.209
444,80.145
450,80.092
455,80.050
462,79.992
468,79.946
475,79.895
482,79.845
487,79.809
494,79.758
500,79.715
508,79.659
515,79.613
522,79.568
530,79.520
538,79.473
545,79.435
552,79.398
560,79.359
570,79.312
580,79.268
590,79.228
600,79.193
608,79.171
615,79.156
622,79.145
630,79.133
640,79.121
650,79.112
660,79.106
670,79.104
680,79.103
690,79.104
700,79.105
710,79.103
720,79.095
730,79.071
740,79.019
750,78.929
762,78.779
775,78.622
788,78.559
800,78.612
812,78.725
825,78.857
838,78.973
850,79.063
862,79.145
875,79.228
885,79.291
900,79.387
912,79.466
925,79.555
938,79.647
950,79.734
962,79.820
975,79.910
988,80.001
1000,80.087
1015,80.200
1030,80.317
1044,80.431
1060,80.564
1075,80.690
1090,80.814
1106,80.944
1120,81.058
1138,81.203
1150,81.300
1172,81.476
1180,81.540
1206,81.747
1220,81.860
1241,82.031
1250,82.104
1265,82.225
1280,82.344
1315,82.615
1320,82.654
1340,82.810
1360,82.972
1380,83.142
1400,83.318
1430,83.588
1450,83.770
1475,84.000
1500,84.234
1525,84.471
1550,84.710
1575,84.950
1600,85.189
1625,85.426
1650,85.659
1675,85.886
1700,86.104
1725,86.311
1750,86.507
1775,86.692
1800,86.867
1825,87.030
1850,87.183
1875,87.326
1900,87.459
1925,87.583
1950,87.699
1975,87.805
2000,87.900
2030,87.998
2060,88.077
2090,88.136
2120,88.176
2140,88.192
2180,88.197
2200,88.188
2240,88.146
2270,88.097
2300,88.034
2330,87.959
2360,87.873
2400,87.743
2430,87.633
2470,87.473
2500,87.345
2540,87.170
2580,86.994
2620,86.819
2650,86.691
2690,86.523
2720,86.401
2760,86.242
2800,86.090
2850,85.912
2900,85.749
2950,85.600
3000,85.466
3040,85.371
3070,85.305
3110,85.227
3150,85.157
3200,85.082
3250,85.018
3300,84.962
3350,84.908
3400,84.856
3450,84.820
3500,84.833
3550,84.905
3600,85.010
3650,85.124
3700,85.241
3750,85.362
3820,85.548
3870,85.696
3950,85.961
4000,86.145
4060,86.384
4120,86.641
4180,86.918
4250,87.261
4310,87.573
4370,87.897
4440,88.288
4500,88.628
4550,88.909
4620,89.287
4680,89.585
4750,89.886
4820,90.118
4870,90.234
4940,90.319
5000,90.315
5080,90.202
5150,90.006
5220,89.731
5300,89.333
5380,88.865
5450,88.411
5520,87.925
5600,87.348
5700,86.654
5800,86.097
5900,85.654
6000,85.205
6080,84.837
6150,84.530
6220,84.249
6300,83.968
6400,83.680
6500,83.466
6600,83.328
6700,83.268
6800,83.284
6900,83.372
7000,83.537
7100,83.785
7200,84.124
7300,84.560
7400,85.090
7500,85.706
7620,86.527
7750,87.426
7880,88.177
8000,88.575
8120,88.571
8250,88.073
8380,87.125
8500,85.978
8620,84.710
8750,83.339
8850,82.349
9000,81.028
9120,80.126
9250,79.300
9380,78.615
9500,78.094
9620,77.669
9750,77.304
9880,77.033
10000,76.871
10150,76.801
10300,76.895
10440,77.135
10600,77.580
10750,78.170
10900,78.957
11060,80.046
11200,81.199
11380,82.843
11500,83.914
11720,85.431
11800,85.742
12060,85.590
12200,84.804
12410,83.001
12500,82.107
12650,80.595
12800,79.171
13150,76.596
13200,76.326
13400,75.486
13600,75.019
13800,74.916
14000,75.163
14300,76.084
14500,76.919
14750,77.869
15000,78.325
15250,78.416
15500,79.018
15750,79.909
16000,80.234
16250,79.921
16500,79.233
16750,78.346
17000,77.402
17250,76.571
17500,75.932
17750,75.341
18000,74.563
18250,73.505
18500,72.249
18750,70.949
19000,69.707
19250,68.560
19500,67.537
19750,66.717