File: output/txt/rg/KZ EDX Pro (High-Density Tuning Foam) L.txt
* Measurement data measured by REW V5.20.4
* Source: Input device not selected, no input selected, L, volume: no control
* Format: 256k Log Swept Sine, 1 sweep at -12,0 dBFS with no timing reference
* Dated: 2021-dec-13 17:36:06
* REW Settings:
*  C-weighting compensation: Off
*  Target level: 75.0 dB
* Note: Stock tips M + stock cable 3.5mm  Left  High-density tuning foam
* Measurement: KZ EDX Pro High-DensityFoaml
* Smoothing: 1/12 octave
* Frequency Step: 1/48 octave
* Start Frequency: 20.300 Hz
*
* Freq(Hz)	SPL(dB)	Phase(degrees)
20.3	94.148	6.6418
20.6	94.141	6.4367
20.9	94.126	6.0020
21.2	94.110	5.5212
21.4	94.101	5.1970
21.8	94.084	4.5535
22	94.076	4.2384
22.4	94.061	3.6219
22.7	94.050	3.1697
23	94.039	2.7224
23.3	94.027	2.2753
23.6	94.013	1.8268
24	93.993	1.2296
24.3	93.976	0.7889
24.7	93.952	0.2203
25	93.935	-0.1890
25.4	93.915	-0.7154
25.8	93.898	-1.2297
26.2	93.882	-1.7398
26.5	93.870	-2.1197
26.9	93.852	-2.6191
27.2	93.837	-2.9868
27.6	93.818	-3.4700
28	93.798	-3.9521
28.5	93.772	-4.5613
29	93.741	-5.1692
29.5	93.704	-5.7539
30	93.667	-6.3020
30.4	93.638	-6.7201
30.7	93.619	-7.0289
31.1	93.594	-7.4423
31.5	93.571	-7.8600
32	93.542	-8.3831
32.5	93.512	-8.8982
33	93.482	-9.4026
33.5	93.451	-9.8999
34	93.419	-10.3925
34.5	93.387	-10.8759
35	93.354	-11.3452
35.5	93.321	-11.8010
36	93.287	-12.2494
36.5	93.253	-12.6955
37	93.219	-13.1416
37.5	93.186	-13.5918
38.2	93.147	-14.2466
38.7	93.121	-14.7350
39.5	93.071	-15.4884
40	93.032	-15.8917
40.6	92.983	-16.2971
41.2	92.935	-16.6661
41.8	92.891	-17.0543
42.5	92.841	-17.5507
43.1	92.801	-17.9904
43.7	92.763	-18.4238
44.4	92.720	-18.9173
45	92.682	-19.3321
45.5	92.649	-19.6734
46.2	92.601	-20.1448
46.8	92.561	-20.5425
47.5	92.513	-20.9972
48.2	92.466	-21.4398
48.7	92.432	-21.7482
49.4	92.383	-22.1697
50	92.341	-22.5243
50.8	92.284	-22.9923
51.5	92.234	-23.3997
52.2	92.184	-23.8036
53	92.126	-24.2567
53.8	92.068	-24.6968
54.5	92.017	-25.0714
55.2	91.965	-25.4372
56	91.906	-25.8454
57	91.831	-26.3435
58	91.756	-26.8327
59	91.682	-27.3134
60	91.608	-27.7803
60.8	91.548	-28.1396
61.5	91.496	-28.4433
62.2	91.444	-28.7394
63	91.385	-29.0725
64	91.312	-29.4840
65	91.239	-29.8874
66	91.167	-30.2797
67	91.095	-30.6624
68	91.025	-31.0375
69	90.955	-31.4042
70	90.885	-31.7616
71	90.815	-32.1090
72	90.745	-32.4454
73	90.674	-32.7708
74	90.605	-33.0874
75	90.536	-33.3982
76.2	90.455	-33.7666
77.5	90.370	-34.1573
78.8	90.285	-34.5306
80	90.209	-34.8573
81.2	90.133	-35.1713
82.5	90.051	-35.5026
83.8	89.969	-35.8253
85	89.892	-36.1134
86.2	89.814	-36.3931
87.5	89.727	-36.6956
88.5	89.660	-36.9308
90	89.560	-37.2678
91.2	89.483	-37.5074
92.5	89.400	-37.7465
93.8	89.318	-37.9800
95	89.242	-38.1939
96.2	89.167	-38.4060
97.5	89.085	-38.6346
98.8	89.004	-38.8588
100	88.929	-39.0528
101.5	88.836	-39.2725
103	88.743	-39.4802
104.4	88.657	-39.6725
106	88.560	-39.8866
107.5	88.472	-40.0779
109	88.385	-40.2571
110.6	88.295	-40.4320
112	88.218	-40.5712
113.8	88.119	-40.7325
115	88.054	-40.8312
117.2	87.935	-40.9961
118	87.891	-41.0502
120.6	87.752	-41.2208
122	87.680	-41.3221
124.1	87.574	-41.4750
125	87.528	-41.5369
126.5	87.452	-41.6351
128	87.375	-41.7291
131.5	87.198	-41.9410
132	87.172	-41.9707
134	87.071	-42.0850
136	86.967	-42.1866
138	86.862	-42.2716
140	86.757	-42.3412
143	86.599	-42.4201
145	86.495	-42.4568
147.5	86.366	-42.4893
150	86.242	-42.5046
152.5	86.123	-42.4884
155	86.009	-42.4339
157.5	85.896	-42.3428
160	85.787	-42.1953
162.5	85.682	-41.9828
165	85.586	-41.7247
167.5	85.504	-41.4430
170	85.438	-41.1688
172.5	85.385	-40.9438
175	85.341	-40.7956
177.5	85.300	-40.7286
180	85.258	-40.7414
182.5	85.210	-40.8183
185	85.153	-40.9287
187.5	85.087	-41.0446
190	85.013	-41.1486
192.5	84.934	-41.2320
195	84.850	-41.2866
197.5	84.766	-41.3081
200	84.681	-41.3054
203	84.579	-41.2926
206	84.477	-41.2713
209	84.375	-41.2265
212	84.275	-41.1534
214	84.208	-41.0901
218	84.077	-40.9295
220	84.012	-40.8326
224	83.886	-40.6071
227	83.793	-40.4145
230	83.703	-40.2039
233	83.617	-39.9755
236	83.539	-39.7355
240	83.445	-39.4224
243	83.382	-39.2128
247	83.302	-38.9876
250	83.242	-38.8643
254	83.159	-38.7449
258	83.071	-38.6415
262	82.979	-38.5266
265	82.908	-38.4275
269	82.812	-38.2754
272	82.739	-38.1444
276	82.643	-37.9488
280	82.552	-37.7359
285	82.441	-37.4566
290	82.332	-37.1676
295	82.225	-36.8630
300	82.121	-36.5430
304	82.040	-36.2764
307	81.981	-36.0694
311	81.903	-35.7852
315	81.829	-35.4966
320	81.739	-35.1357
325	81.650	-34.7743
330	81.565	-34.4050
335	81.483	-34.0280
340	81.406	-33.6537
345	81.331	-33.2867
350	81.258	-32.9252
355	81.188	-32.5699
360	81.118	-32.2217
365	81.049	-31.8783
370	80.981	-31.5364
375	80.913	-31.1934
382	80.821	-30.7075
387	80.758	-30.3581
395	80.661	-29.7965
400	80.602	-29.4391
406	80.533	-29.0025
412	80.464	-28.5646
418	80.398	-28.1304
425	80.325	-27.6227
431	80.266	-27.1789
437	80.209	-26.7307
444	80.145	-26.2099
450	80.092	-25.7662
455	80.050	-25.3973
462	79.992	-24.8804
468	79.946	-24.4354
475	79.895	-23.9129
482	79.845	-23.3898
487	79.809	-23.0167
494	79.758	-22.4946
500	79.715	-22.0472
508	79.659	-21.4507
515	79.613	-20.9293
522	79.568	-20.4090
530	79.520	-19.8156
538	79.473	-19.2259
545	79.435	-18.7149
552	79.398	-18.2070
560	79.359	-17.6275
570	79.312	-16.8995
580	79.268	-16.1667
590	79.228	-15.4323
600	79.193	-14.7009
608	79.171	-14.1215
615	79.156	-13.6177
622	79.145	-13.1154
630	79.133	-12.5440
640	79.121	-11.8379
650	79.112	-11.1432
660	79.106	-10.4587
670	79.104	-9.7850
680	79.103	-9.1323
690	79.104	-8.5149
700	79.105	-7.9445
710	79.103	-7.4325
720	79.095	-6.9928
730	79.071	-6.6275
740	79.019	-6.2943
750	78.929	-5.8672
762	78.779	-4.9542
775	78.622	-3.2340
788	78.559	-0.9639
800	78.612	1.0928
812	78.725	2.7579
825	78.857	4.1274
838	78.973	5.2358
850	79.063	6.1621
862	79.145	7.0610
875	79.228	8.0333
885	79.291	8.7819
900	79.387	9.8974
912	79.466	10.7816
925	79.555	11.7333
938	79.647	12.6778
950	79.734	13.5389
962	79.820	14.3849
975	79.910	15.2810
988	80.001	16.1526
1000	80.087	16.9311
1015	80.200	17.8638
1030	80.317	18.7490
1044	80.431	19.5294
1060	80.564	20.3635
1075	80.690	21.0905
1090	80.814	21.7655
1106	80.944	22.4234
1120	81.058	22.9437
1138	81.203	23.5403
1150	81.300	23.8966
1172	81.476	24.4701
1180	81.540	24.6549
1206	81.747	25.1776
1220	81.860	25.4175
1241	82.031	25.7377
1250	82.104	25.8621
1265	82.225	26.0533
1280	82.344	26.2258
1315	82.615	26.5737
1320	82.654	26.6186
1340	82.810	26.7885
1360	82.972	26.9444
1380	83.142	27.0895
1400	83.318	27.2240
1430	83.588	27.3967
1450	83.770	27.4864
1475	84.000	27.5629
1500	84.234	27.5918
1525	84.471	27.5620
1550	84.710	27.4605
1575	84.950	27.2763
1600	85.189	27.0007
1625	85.426	26.6295
1650	85.659	26.1627
1675	85.886	25.6015
1700	86.104	24.9500
1725	86.311	24.2164
1750	86.507	23.4107
1775	86.692	22.5411
1800	86.867	21.6129
1825	87.030	20.6319
1850	87.183	19.6037
1875	87.326	18.5326
1900	87.459	17.4232
1925	87.583	16.2803
1950	87.699	15.1087
1975	87.805	13.9122
2000	87.900	12.6956
2030	87.998	11.2179
2060	88.077	9.7313
2090	88.136	8.2466
2120	88.176	6.7756
2140	88.192	5.8094
2180	88.197	3.9300
2200	88.188	3.0234
2240	88.146	1.2911
2270	88.097	0.0727
2300	88.034	-1.0677
2330	87.959	-2.1217
2360	87.873	-3.0837
2400	87.743	-4.2202
2430	87.633	-4.9633
2470	87.473	-5.8090
2500	87.345	-6.3352
2540	87.170	-6.8960
2580	86.994	-7.3051
2620	86.819	-7.5731
2650	86.691	-7.6873
2690	86.523	-7.7308
2720	86.401	-7.6878
2760	86.242	-7.5384
2800	86.090	-7.2925
2850	85.912	-6.8638
2900	85.749	-6.3180
2950	85.600	-5.6704
3000	85.466	-4.9344
3040	85.371	-4.2927
3070	85.305	-3.7851
3110	85.227	-3.0783
3150	85.157	-2.3423
3200	85.082	-1.3879
3250	85.018	-0.4025
3300	84.962	0.6116
3350	84.908	1.6779
3400	84.856	2.8770
3450	84.820	4.3104
3500	84.833	5.9210
3550	84.905	7.4606
3600	85.010	8.7748
3650	85.124	9.8968
3700	85.241	10.9072
3750	85.362	11.8563
3820	85.548	13.1117
3870	85.696	13.9554
3950	85.961	15.1969
4000	86.145	15.8906
4060	86.384	16.6208
4120	86.641	17.2183
4180	86.918	17.6590
4250	87.261	17.9404
4310	87.573	17.9548
4370	87.897	17.7389
4440	88.288	17.1659
4500	88.628	16.3646
4550	88.909	15.4504
4620	89.287	13.7593
4680	89.585	11.9149
4750	89.886	9.3188
4820	90.118	6.2986
4870	90.234	3.9332
4940	90.319	0.4277
5000	90.315	-2.6586
5080	90.202	-6.7223
5150	90.006	-10.0819
5220	89.731	-13.1348
5300	89.333	-16.1369
5380	88.865	-18.5432
5450	88.411	-20.1230
5520	87.925	-21.1800
5600	87.348	-21.6800
5700	86.654	-21.1885
5800	86.097	-20.0010
5900	85.654	-19.0241
6000	85.205	-18.0611
6080	84.837	-16.9546
6150	84.530	-15.7085
6220	84.249	-14.2526
6300	83.968	-12.3960
6400	83.680	-9.8632
6500	83.466	-7.1609
6600	83.328	-4.3475
6700	83.268	-1.4811
6800	83.284	1.3715
6900	83.372	4.1357
7000	83.537	6.7323
7100	83.785	9.0781
7200	84.124	11.0778
7300	84.560	12.6121
7400	85.090	13.5284
7500	85.706	13.6272
7620	86.527	12.3067
7750	87.426	8.5621
7880	88.177	1.9727
8000	88.575	-6.4689
8120	88.571	-16.2006
8250	88.073	-26.4152
8380	87.125	-34.5521
8500	85.978	-39.4610
8620	84.710	-41.9091
8750	83.339	-42.2684
8850	82.349	-41.3041
9000	81.028	-38.4155
9120	80.126	-35.2311
9250	79.300	-31.1934
9380	78.615	-26.7289
9500	78.094	-22.3362
9620	77.669	-17.7457
9750	77.304	-12.5914
9880	77.033	-7.2761
10000	76.871	-2.2464
10150	76.801	4.1545
10300	76.895	10.5421
10440	77.135	16.3032
10600	77.580	22.4916
10750	78.170	27.8576
10900	78.957	32.6977
11060	80.046	36.9550
11200	81.199	39.4265
11380	82.843	39.8107
11500	83.914	37.5767
11720	85.431	27.0830
11800	85.742	21.3914
12060	85.590	0.7336
12200	84.804	-8.3618
12410	83.001	-16.1606
12500	82.107	-17.4087
12650	80.595	-17.3130
12800	79.171	-15.2476
13150	76.596	-6.3516
13200	76.326	-4.8405
13400	75.486	1.4267
13600	75.019	7.7539
13800	74.916	13.8153
14000	75.163	19.2800
14300	76.084	25.3279
14500	76.919	26.9200
14750	77.869	25.1143
15000	78.325	20.7083
15250	78.416	19.2281
15500	79.018	20.6494
15750	79.909	17.0374
16000	80.234	7.9480
16250	79.921	-1.4520
16500	79.233	-8.6924
16750	78.346	-13.5114
17000	77.402	-16.1628
17250	76.571	-17.5336
17500	75.932	-19.0586
17750	75.341	-21.5591
18000	74.563	-24.2574
18250	73.505	-25.5760
18500	72.249	-24.7212
18750	70.949	-22.0743
19000	69.707	-18.3917
19250	68.560	-14.1586
19500	67.537	-9.7479
19750	66.717	-5.8468